Folder: ISMM_EPSRC_brain/impedance/2021-09-28 PBS copper wire

Note: README_data_processing.rst
Quantitative monitoring and modelling of retrodialysis drug delivery in a brain phantom
=======================================================================================

This is the dataset and software supporting the study *Quantitative 
monitoring and modelling of retrodialysis drug delivery in a brain phantom*
by Etienne Rognin, Niamh Willis-Fox, Ronan Daly, Institute for Manufacturing, 
Department of Engineering, University of Cambridge, 17 Charles Babbage Road, 
Cambridge CB3 0FS, United Kingdom.


License
-------
Copyright (C) 2022 by Etienne Rognin <ecr43 at cam.ac.uk>, Niamh Willis-Fox, 
Ronan Daly <rd439 at cam.ac.uk>.

``Tiff`` images fall under the Creative Commons Attribution 4.0 license. 
You must give appropriate credit, provide a link to the license, and 
indicate if changes were made. You may do so in any reasonable manner, but 
not in any way that suggests the licensor endorses you or your use. 

Software (for example ``.ipynb`` IPython Notebook files) fall under BSD 
Zero clause license below:

Permission to use, copy, modify, and/or distribute this software for any purpose
with or without fee is hereby granted.

THE SOFTWARE IS PROVIDED "AS IS" AND THE AUTHOR DISCLAIMS ALL WARRANTIES WITH 
REGARD TO THIS SOFTWARE INCLUDING ALL IMPLIED WARRANTIES OF MERCHANTABILITY AND
FITNESS. IN NO EVENT SHALL THE AUTHOR BE LIABLE FOR ANY SPECIAL, DIRECT,
INDIRECT, OR CONSEQUENTIAL DAMAGES OR ANY DAMAGES WHATSOEVER RESULTING FROM LOSS
OF USE, DATA OR PROFITS, WHETHER IN AN ACTION OF CONTRACT, NEGLIGENCE OR OTHER
TORTIOUS ACTION, ARISING OUT OF OR IN CONNECTION WITH THE USE OR PERFORMANCE OF
THIS SOFTWARE.



Contents
--------

There are two main folders:

 1. ``example`` which contains all the relevant scripts and a small dataset
    of raw images. Use this for a minimal example.
   
 2. ``supporting data`` contains the data and software used to support the 
    present study. There is one folder per experiment. The naming convention 
    is ``date flow-rate``. Usage of each case folder is the same as the main 
    ``example`` folder. There is also a ``model`` folder containing scripts
    to analyse the whole dataset and for special cases described in the 
    paper.


Usage
-----

Raw images are stored in zip files which must be unzipped first before 
running data analysis scripts.

    
The software is a set of self-documented IPython Notebook files. The use of
these scripts requires the following to be installed:
  - Python 3.7+
  - Jupyter Notebook
  - Python modules: numpy, skimage, matplotlib, ipywidgets, tqdm, pywt, 
    natsort, abel
    
For each experimental folder, three scripts must be run sequentially:

 1. ``1 Preprocessing.ipynb`` loads raw images and applies filtering. The 
    output is absorbance fields (``A.npy`` Python Numpy file) and probe
    mask (``mask.npy``). Coordinates of the area of interest are stored in
    Python file ``cuvette.pickle``.
 
 2. ``2 Integrate.ipynb`` measures the mass seen in the image sta

File: copper-wire_1V.csv
#Digilent WaveForms Impedance Analyzer
#Device Name: Discovery2
#Serial Number: SN:210321B19D0B
#Date Time:
#Digilent WaveForms Impedance Analyzer Trace#Trace: Trace
#Start: 0.1 Hz
#Stop: 1e+07 Hz
#Steps: 81
#Resistor: 100 O
#Average: 1
#ProbeResistance: 1.04e+06 O
#ProbeCapacitance: 4.3e-11 F
#Compensation:none
#Wavegen: Wavegen1
#Amplitude: 1 V
#Offset: 0 V
#Amplification: 1 X
#Settle: 0.01 s
#MinPeriods: 16
#Scale: Logarithmic
#Channel: Channel 1
#Range: 5.53139 V
#Offset: -3.93045e-05 V
#Attenuation: 1 X
#Channel: Channel 2
#Range: 5.54075 V
#Offset: 6.34596e-06 V
#Attenuation: 1 X

Frequency (Hz),Trace th (deg),Trace |Z| (Ohm)
0.1,-45.7999,3447.91
0.125893,-47.1588,4147.57
0.158489,-44.433,4658.63
0.199526,-44.3646,4486.73
0.251189,-45.4633,4111.22
0.316228,-46.657,3651.8
0.398107,-47.8202,3244.45
0.501187,-49.0224,2857.5
0.630957,-50.1957,2523.22
0.794328,-51.4558,2225.1
1,-52.6922,1956.38
1.25893,-53.8133,1709.17
1.58489,-54.8322,1485.76
1.99526,-55.6751,1287.05
2.51189,-56.3547,1111.66
3.16228,-56.8934,957.864
3.98107,-57.2298,823.63
5.01187,-57.3993,707.21
6.30957,-57.3616,606.657
7.94328,-57.11,520.206
10,-56.6324,446.182
12.5893,-55.9416,382.904
15.8489,-55.0516,328.928
19.9526,-54.048,283.306
25.1189,-53.0478,245.122
31.6228,-52.0448,213.266
39.8107,-50.9634,186.38
50.1187,-49.7429,163.562
63.0957,-48.287,143.929
79.4328,-46.5338,126.864
100,-44.4318,112.033
125.893,-42.0085,99.3223
158.489,-39.0979,88.3255
199.526,-35.8921,79.2928
251.189,-32.651,72.1421
316.228,-29.9306,66.7535
398.107,-27.9962,62.6558
501.187,-26.6555,59.2481
630.957,-25.5194,56.2073
794.328,-24.1609,53.3232
1000,-22.5701,50.6889
1258.93,-20.6392,48.3447
1584.89,-18.4696,46.36
1995.26,-16.2265,44.7202
2511.89,-14.0741,43.4066
3162.28,-12.0715,42.3456
3981.07,-10.2936,41.5342
5011.87,-8.70172,40.8881
6309.57,-7.32482,40.365
7943.28,-6.11857,39.9671
10000,-5.07531,39.6715
12589.3,-4.21053,39.4464
15848.9,-3.47372,39.2532
19952.6,-2.87791,39.1106
25118.9,-2.3699,38.9966
31622.8,-1.90156,38.9133
39810.7,-1.53993,38.8382
50118.7,-1.22267,38.7804
63095.7,-0.9422,38.7391
79432.8,-0.712561,38.7406
100000,-0.529645,38.7123
125893,-0.374061,38.6684
158489,-0.155758,38.6905
199526,-0.00440654,38.692
251189,0.116498,38.7553
316228,0.240807,38.7752
398107,0.385521,38.7291
501187,0.510676,38.7324
630957,0.738961,38.7281
794328,0.966768,38.7399
1000000,1.24385,38.7567
1.25893e+06,1.59836,38.7479
1.58489e+06,2.0081,38.7671
1.99526e+06,2.5911,38.8083
2.51189e+06,3.22891,38.8512
3.16228e+06,4.07533,38.925
3.98107e+06,5.16224,39.0481
5.01187e+06,6.57862,39.2284
6.30957e+06,7.97051,39.5373
7.94328e+06,10.1912,39.8705
10000000,12.5543,40.373

File: copper-wire_10mV.csv
#Digilent WaveForms Impedance Analyzer
#Device Name: Discovery2
#Serial Number: SN:210321B19D0B
#Date Time:
#Digilent WaveForms Impedance Analyzer Trace#Trace: Trace
#Start: 0.1 Hz
#Stop: 1e+07 Hz
#Steps: 81
#Resistor: 100 O
#Average: 1
#ProbeResistance: 1.04e+06 O
#ProbeCapacitance: 4.3e-11 F
#Compensation:none
#Wavegen: Wavegen1
#Amplitude: 0.01 V
#Offset: 0 V
#Amplification: 1 X
#Settle: 0.01 s
#MinPeriods: 16
#Scale: Logarithmic
#Channel: Channel 1
#Range: 5.53139 V
#Offset: -3.93045e-05 V
#Attenuation: 1 X
#Channel: Channel 2
#Range: 5.54075 V
#Offset: 6.34596e-06 V
#Attenuation: 1 X

Frequency (Hz),Trace th (deg),Trace |Z| (Ohm)
0.1,1.57437,4676.97
0.125893,-1.63988,5859.95
0.158489,-9.0197,5206.49
0.199526,-10.3559,5039.81
0.251189,-14.5329,4342.62
0.316228,-8.27983,4610.66
0.398107,-14.7104,4715.9
0.501187,-17.3901,4627.47
0.630957,-21.5777,3986.9
0.794328,-31.3967,3514.06
1,-26.5579,3492.32
1.25893,-30.8475,3328.47
1.58489,-35.3978,3164.05
1.99526,-43.7383,2829.32
2.51189,-42.7802,2495.17
3.16228,-44.1398,2055.35
3.98107,-44.1761,1968.49
5.01187,-44.5223,1747.7
6.30957,-44.9371,1467.09
7.94328,-47.9129,1328.44
10,-48.608,1140.67
12.5893,-48.6712,1018.46
15.8489,-50.0359,902.453
19.9526,-50.5014,772.673
25.1189,-50.7339,693.804
31.6228,-51.2797,614.437
39.8107,-50.1343,537.883
50.1187,-50.5948,472.834
63.0957,-50.8716,408.311
79.4328,-50.0767,362.607
100,-50.4019,317.587
125.893,-50.0287,278.303
158.489,-49.5176,244.884
199.526,-49.3268,214.406
251.189,-49.0341,187.706
316.228,-48.432,165.013
398.107,-47.6245,144.153
501.187,-47.4243,127.637
630.957,-45.7205,112.034
794.328,-44.2272,99.5674
1000,-42.5817,87.543
1258.93,-40.3311,77.6704
1584.89,-38.2241,69.8651
1995.26,-34.9856,63.1799
2511.89,-31.4675,56.3896
3162.28,-28.9753,52.077
3981.07,-25.2942,48.5792
5011.87,-22.2574,45.9925
6309.57,-19.1146,44.1135
7943.28,-17.3595,42.6746
10000,-13.1856,40.9202
12589.3,-11.0931,40.8318
15848.9,-8.12723,38.8474
19952.6,-8.28699,38.7264
25118.9,-4.86318,39.9294
31622.8,-4.43384,39.7306
39810.7,-4.65192,39.0433
50118.7,-3.08018,41.5838
63095.7,0.669522,38.5322
79432.8,-3.28978,37.83
100000,-0.501692,35.2916
125893,-2.35011,40.1844
158489,6.07181,36.5994
199526,0.52463,35.6329
251189,-4.04397,36.5693
316228,6.23291,40.1514
398107,3.18236,36.9151
501187,-1.93095,36.8183
630957,-0.255155,37.3428
794328,-1.15481,38.9221
1000000,0.378601,38.4961
1.25893e+06,0.134125,37.3518
1.58489e+06,-0.245454,38.5751
1.99526e+06,1.08945,39.4186
2.51189e+06,1.32619,37.4078
3.16228e+06,2.64556,39.451
3.98107e+06,1.23251,39.6088
5.01187e+06,1.66237,40.2749
6.30957e+06,5.4443,41.5433
7.94328e+06,9.68082,44.1835
10000000,11.8642,49.0213

File: copper-wire_50mV.csv
#Digilent WaveForms Impedance Analyzer
#Device Name: Discovery2
#Serial Number: SN:210321B19D0B
#Date Time:
#Digilent WaveForms Impedance Analyzer Trace#Trace: Trace
#Start: 0.1 Hz
#Stop: 1e+07 Hz
#Steps: 81
#Resistor: 100 O
#Average: 1
#ProbeResistance: 1.04e+06 O
#ProbeCapacitance: 4.3e-11 F
#Compensation:none
#Wavegen: Wavegen1
#Amplitude: 0.05 V
#Offset: 0 V
#Amplification: 1 X
#Settle: 0.01 s
#MinPeriods: 16
#Scale: Logarithmic
#Channel: Channel 1
#Range: 5.53139 V
#Offset: -3.93045e-05 V
#Attenuation: 1 X
#Channel: Channel 2
#Range: 5.54075 V
#Offset: 6.34596e-06 V
#Attenuation: 1 X

Frequency (Hz),Trace th (deg),Trace |Z| (Ohm)
0.1,-24.5947,6787.67
0.125893,-27.3134,6390.87
0.158489,-29.1957,6223.78
0.199526,-29.2775,5800.85
0.251189,-32.0712,5655.44
0.316228,-31.3262,5272.74
0.398107,-31.9879,4891.71
0.501187,-33.9683,4448.76
0.630957,-35.7262,4090.33
0.794328,-37.1829,3864.58
1,-38.6055,3492.58
1.25893,-40.1348,3232.54
1.58489,-42.0333,2984.28
1.99526,-42.2448,2635.34
2.51189,-44.2246,2369.68
3.16228,-45.5346,2150.01
3.98107,-46.7029,1893.19
5.01187,-47.6212,1703.31
6.30957,-48.48,1527.17
7.94328,-49.2445,1345.94
10,-50.0549,1188.99
12.5893,-50.8653,1049.72
15.8489,-51.1142,921.945
19.9526,-51.764,808.269
25.1189,-52.019,709.75
31.6228,-52.2471,622.801
39.8107,-52.3845,543.295
50.1187,-52.6611,474.58
63.0957,-52.6375,415.004
79.4328,-52.4687,363.188
100,-52.3806,316.969
125.893,-52.1888,277.234
158.489,-51.7469,241.931
199.526,-51.289,210.947
251.189,-50.759,184.239
316.228,-50.1785,160.868
398.107,-49.1924,140.294
501.187,-48.1897,122.661
630.957,-46.8638,107.085
794.328,-45.1287,94.1766
1000,-43.0354,82.9118
1258.93,-40.72,73.4999
1584.89,-37.8546,65.8227
1995.26,-34.4935,59.3873
2511.89,-30.8517,54.246
3162.28,-27.4604,50.3099
3981.07,-23.6372,47.558
5011.87,-20.6327,45.0858
6309.57,-17.1643,43.5182
7943.28,-14.3676,42.0536
10000,-12.0907,41.1321
12589.3,-9.99234,40.6078
15848.9,-7.97416,39.9134
19952.6,-7.34325,39.7458
25118.9,-5.20126,39.5821
31622.8,-4.07525,39.0534
39810.7,-3.54565,38.649
50118.7,-3.0793,38.8179
63095.7,-2.4305,38.4226
79432.8,-2.08495,39.1861
100000,-1.69129,38.4059
125893,0.2617,38.8524
158489,-0.808838,39.212
199526,-0.649613,39.1571
251189,0.0876254,38.1456
316228,-0.23754,38.628
398107,-0.678781,38.6524
501187,0.170025,38.4572
630957,-0.0917943,39.0013
794328,0.651488,38.8381
1000000,1.32307,38.5473
1.25893e+06,1.04746,38.4065
1.58489e+06,1.78561,38.5686
1.99526e+06,2.23319,38.6069
2.51189e+06,3.27578,38.6278
3.16228e+06,4.09254,38.763
3.98107e+06,4.69459,39.0613
5.01187e+06,6.20114,39.4645
6.30957e+06,7.05764,39.63
7.94328e+06,9.50647,40.0605
10000000,11.4608,41.6113

File: copper-wire_100mV.csv
#Digilent WaveForms Impedance Analyzer
#Device Name: Discovery2
#Serial Number: SN:210321B19D0B
#Date Time:
#Digilent WaveForms Impedance Analyzer Trace#Trace: Trace
#Start: 0.1 Hz
#Stop: 1e+07 Hz
#Steps: 81
#Resistor: 100 O
#Average: 1
#ProbeResistance: 1.04e+06 O
#ProbeCapacitance: 4.3e-11 F
#Compensation:none
#Wavegen: Wavegen1
#Amplitude: 0.1 V
#Offset: 0 V
#Amplification: 1 X
#Settle: 0.01 s
#MinPeriods: 16
#Scale: Logarithmic
#Channel: Channel 1
#Range: 5.53139 V
#Offset: -3.93045e-05 V
#Attenuation: 1 X
#Channel: Channel 2
#Range: 5.54075 V
#Offset: 6.34596e-06 V
#Attenuation: 1 X

Frequency (Hz),Trace th (deg),Trace |Z| (Ohm)
0.1,-27.937,5311.73
0.125893,-29.9663,5691.01
0.158489,-29.9564,5766.67
0.199526,-31.3272,5622.12
0.251189,-32.5376,5422.24
0.316228,-33.2057,5081.44
0.398107,-34.38,4805.72
0.501187,-35.086,4522.75
0.630957,-35.7774,4166.36
0.794328,-36.6413,3871.35
1,-37.4955,3546.37
1.25893,-39.0674,3239.88
1.58489,-40.0195,2968.81
1.99526,-40.7512,2704.16
2.51189,-42.3838,2465.07
3.16228,-43.4638,2229.97
3.98107,-44.7518,2007.88
5.01187,-45.7623,1799.73
6.30957,-47.1856,1615.92
7.94328,-48.4318,1443.82
10,-49.3336,1279.88
12.5893,-50.4517,1136.92
15.8489,-51.4953,1001.25
19.9526,-52.4444,881.041
25.1189,-53.2661,772.365
31.6228,-53.8684,676.429
39.8107,-54.4413,589.802
50.1187,-54.8899,513.132
63.0957,-55.0936,445.683
79.4328,-55.3192,386.063
100,-55.3568,334.123
125.893,-55.2371,289.021
158.489,-54.9166,250.001
199.526,-54.4477,216.419
251.189,-53.8247,187.143
316.228,-52.909,162.007
398.107,-51.837,140.399
501.187,-50.4494,121.743
630.957,-48.6526,105.849
794.328,-46.6533,92.4399
1000,-44.1001,81.2626
1258.93,-41.2862,71.9532
1584.89,-37.9021,64.2666
1995.26,-34.2207,58.0946
2511.89,-30.5161,53.3982
3162.28,-26.8462,49.7562
3981.07,-23.2806,46.7942
5011.87,-19.7353,44.6515
6309.57,-16.6217,43.1341
7943.28,-13.9431,41.9795
10000,-11.58,41.1726
12589.3,-9.64322,40.5943
15848.9,-7.88866,39.9644
19952.6,-6.47689,39.61
25118.9,-5.41231,39.3915
31622.8,-4.54336,39.21
39810.7,-3.75116,39.0042
50118.7,-3.18989,39.237
63095.7,-2.36804,38.7555
79432.8,-2.01979,38.8177
100000,-1.84082,38.918
125893,-1.41244,38.8263
158489,-0.815153,38.8403
199526,-0.565359,38.4181
251189,0.0862795,38.5673
316228,0.0358008,38.5498
398107,-0.0293092,38.7623
501187,0.775652,38.6953
630957,0.634522,38.6822
794328,0.655854,38.8929
1000000,0.841327,38.6993
1.25893e+06,1.66855,38.781
1.58489e+06,1.91371,38.7989
1.99526e+06,2.51685,38.9028
2.51189e+06,3.04774,38.9152
3.16228e+06,4.1092,39.0743
3.98107e+06,5.02383,39.1002
5.01187e+06,6.41314,39.3614
6.30957e+06,7.53621,39.6879
7.94328e+06,9.61638,40.2159
10000000,11.8769,41.1208

File: copper-wire_500mV.csv
#Digilent WaveForms Impedance Analyzer
#Device Name: Discovery2
#Serial Number: SN:210321B19D0B
#Date Time:
#Digilent WaveForms Impedance Analyzer Trace#Trace: Trace
#Start: 0.1 Hz
#Stop: 1e+07 Hz
#Steps: 81
#Resistor: 100 O
#Average: 1
#ProbeResistance: 1.04e+06 O
#ProbeCapacitance: 4.3e-11 F
#Compensation:none
#Wavegen: Wavegen1
#Amplitude: 0.5 V
#Offset: 0 V
#Amplification: 1 X
#Settle: 0.01 s
#MinPeriods: 16
#Scale: Logarithmic
#Channel: Channel 1
#Range: 5.53139 V
#Offset: -3.93045e-05 V
#Attenuation: 1 X
#Channel: Channel 2
#Range: 5.54075 V
#Offset: 6.34596e-06 V
#Attenuation: 1 X

Frequency (Hz),Trace th (deg),Trace |Z| (Ohm)
0.1,-32.9175,4114.9
0.125893,-33.4942,4621.48
0.158489,-34.2091,4463.37
0.199526,-34.8956,4115.65
0.251189,-35.8315,3723.96
0.316228,-36.7909,3339.32
0.398107,-37.5843,2980.99
0.501187,-38.5989,2654.89
0.630957,-39.3662,2351.52
0.794328,-40.2193,2081.44
1,-41.0027,1839.78
1.25893,-41.7106,1623.73
1.58489,-42.4491,1432.3
1.99526,-43.136,1262.55
2.51189,-43.7978,1113.22
3.16228,-44.4166,979.578
3.98107,-45.0044,861.848
5.01187,-45.5512,758.066
6.30957,-46.0081,666.629
7.94328,-46.4401,586.216
10,-46.7608,515.313
12.5893,-46.9747,453.158
15.8489,-47.056,398.697
19.9526,-47.0103,350.69
25.1189,-46.8113,308.463
31.6228,-46.4689,271.199
39.8107,-45.9347,238.537
50.1187,-45.146,209.736
63.0957,-44.1215,184.601
79.4328,-42.8853,162.913
100,-41.4883,144.419
125.893,-40.1255,129.144
158.489,-38.9146,116.488
199.526,-37.8983,105.906
251.189,-36.9869,96.7335
316.228,-36.1556,88.711
398.107,-35.1298,81.4008
501.187,-33.8613,74.768
630.957,-32.2396,68.8165
794.328,-30.2657,63.5713
1000,-28.0311,59.08
1258.93,-25.6137,55.2697
1584.89,-23.1604,52.0472
1995.26,-20.7077,49.4107
2511.89,-18.3642,47.2411
3162.28,-16.0921,45.4815
3981.07,-14.0075,44.0521
5011.87,-12.083,42.8776
6309.57,-10.4083,41.9577
7943.28,-8.86914,41.2167
10000,-7.48581,40.6726
12589.3,-6.26266,40.2113
15848.9,-5.22263,39.8431
19952.6,-4.29395,39.5987
25118.9,-3.55484,39.4277
31622.8,-2.97588,39.1819
39810.7,-2.35594,39.1062
50118.7,-1.77972,39.0431
63095.7,-1.48478,38.9045
79432.8,-1.23229,38.8897
100000,-0.982476,38.8441
125893,-0.703278,38.8337
158489,-0.287525,38.8225
199526,-0.162634,38.758
251189,0.0372188,38.8293
316228,0.130469,38.8502
398107,0.216252,38.8528
501187,0.440156,38.833
630957,0.666418,38.7658
794328,0.870394,38.7897
1000000,1.1872,38.8414
1.25893e+06,1.53447,38.8295
1.58489e+06,1.95889,38.8319
1.99526e+06,2.517,38.8831
2.51189e+06,3.18905,38.9147
3.16228e+06,4.04672,38.97
3.98107e+06,5.09008,39.06
5.01187e+06,6.40699,39.2298
6.30957e+06,7.67243,39.4655
7.94328e+06,9.70735,39.7602
10000000,11.8473,40.2083