Folder: ISMM_EPSRC_brain/impedance/2021-09-21 training

Note: README_data_processing.rst
Quantitative monitoring and modelling of retrodialysis drug delivery in a brain phantom
=======================================================================================

This is the dataset and software supporting the study *Quantitative 
monitoring and modelling of retrodialysis drug delivery in a brain phantom*
by Etienne Rognin, Niamh Willis-Fox, Ronan Daly, Institute for Manufacturing, 
Department of Engineering, University of Cambridge, 17 Charles Babbage Road, 
Cambridge CB3 0FS, United Kingdom.


License
-------
Copyright (C) 2022 by Etienne Rognin <ecr43 at cam.ac.uk>, Niamh Willis-Fox, 
Ronan Daly <rd439 at cam.ac.uk>.

``Tiff`` images fall under the Creative Commons Attribution 4.0 license. 
You must give appropriate credit, provide a link to the license, and 
indicate if changes were made. You may do so in any reasonable manner, but 
not in any way that suggests the licensor endorses you or your use. 

Software (for example ``.ipynb`` IPython Notebook files) fall under BSD 
Zero clause license below:

Permission to use, copy, modify, and/or distribute this software for any purpose
with or without fee is hereby granted.

THE SOFTWARE IS PROVIDED "AS IS" AND THE AUTHOR DISCLAIMS ALL WARRANTIES WITH 
REGARD TO THIS SOFTWARE INCLUDING ALL IMPLIED WARRANTIES OF MERCHANTABILITY AND
FITNESS. IN NO EVENT SHALL THE AUTHOR BE LIABLE FOR ANY SPECIAL, DIRECT,
INDIRECT, OR CONSEQUENTIAL DAMAGES OR ANY DAMAGES WHATSOEVER RESULTING FROM LOSS
OF USE, DATA OR PROFITS, WHETHER IN AN ACTION OF CONTRACT, NEGLIGENCE OR OTHER
TORTIOUS ACTION, ARISING OUT OF OR IN CONNECTION WITH THE USE OR PERFORMANCE OF
THIS SOFTWARE.



Contents
--------

There are two main folders:

 1. ``example`` which contains all the relevant scripts and a small dataset
    of raw images. Use this for a minimal example.
   
 2. ``supporting data`` contains the data and software used to support the 
    present study. There is one folder per experiment. The naming convention 
    is ``date flow-rate``. Usage of each case folder is the same as the main 
    ``example`` folder. There is also a ``model`` folder containing scripts
    to analyse the whole dataset and for special cases described in the 
    paper.


Usage
-----

Raw images are stored in zip files which must be unzipped first before 
running data analysis scripts.

    
The software is a set of self-documented IPython Notebook files. The use of
these scripts requires the following to be installed:
  - Python 3.7+
  - Jupyter Notebook
  - Python modules: numpy, skimage, matplotlib, ipywidgets, tqdm, pywt, 
    natsort, abel
    
For each experimental folder, three scripts must be run sequentially:

 1. ``1 Preprocessing.ipynb`` loads raw images and applies filtering. The 
    output is absorbance fields (``A.npy`` Python Numpy file) and probe
    mask (``mask.npy``). Coordinates of the area of interest are stored in
    Python file ``cuvette.pickle``.
 
 2. ``2 Integrate.ipynb`` measures the mass seen in the image sta

File: copperTape-DIwater.csv
#Digilent WaveForms Impedance Analyzer
#Device Name: Discovery2
#Serial Number: SN:210321B19D0B
#Date Time:
#Digilent WaveForms Impedance Analyzer Trace#Trace: Trace
#Start: 1 Hz
#Stop: 1e+07 Hz
#Steps: 71
#Resistor: 10000 O
#Average: 1
#ProbeResistance: 1.04e+06 O
#ProbeCapacitance: 4.3e-11 F
#Compensation:none
#Wavegen: Wavegen1
#Amplitude: 1 V
#Offset: 0 V
#Amplification: 1 X
#Settle: 0.01 s
#MinPeriods: 16
#Scale: Logarithmic
#Channel: Channel 1
#Range: 5.53139 V
#Offset: -3.93045e-05 V
#Attenuation: 1 X
#Channel: Channel 2
#Range: 5.54075 V
#Offset: 6.34596e-06 V
#Attenuation: 1 X

Frequency (Hz),Trace th (deg),Trace |Z| (Ohm),Trace Cs (F)
1,-2.41716,222825,1.69357e-05
1.25893,-2.34629,218708,1.41195e-05
1.58489,-2.24396,215501,1.19012e-05
1.99526,-2.15062,213035,9.97766e-06
2.51189,-2.03634,210970,8.45208e-06
3.16228,-1.89982,209158,7.25831e-06
3.98107,-1.75509,207752,6.28297e-06
5.01187,-1.62995,206446,5.4078e-06
6.30957,-1.51969,205351,4.63172e-06
7.94328,-1.36669,204340,4.11112e-06
10,-1.25405,203539,3.57285e-06
12.5893,-1.11557,202736,3.2029e-06
15.8489,-0.998709,202232,2.84889e-06
19.9526,-0.895622,201694,2.53012e-06
25.1189,-0.808455,201292,2.23087e-06
31.6228,-0.721664,200893,1.98909e-06
39.8107,-0.653493,200639,1.74701e-06
50.1187,-0.905982,198402,1.01227e-06
63.0957,-0.622428,200259,1.1595e-06
79.4328,-0.481529,200070,1.19164e-06
100,-0.706672,200454,6.43757e-07
125.893,-0.524656,199693,6.91373e-07
158.489,-0.523196,199716,5.50644e-07
199.526,-0.525883,199993,4.34556e-07
251.189,-0.647805,199662,2.80681e-07
316.228,-0.678881,199430,2.12994e-07
398.107,-0.93414,199317,1.23029e-07
501.187,-1.03372,199332,8.83056e-08
630.957,-1.27875,199267,5.67231e-08
794.328,-1.53402,199326,3.7549e-08
1000,-1.83472,199139,2.49627e-08
1258.93,-2.29397,198730,1.58931e-08
1584.89,-2.92898,199180,9.86666e-09
1995.26,-3.64633,198956,6.30411e-09
2511.89,-4.55605,198478,4.01882e-09
3162.28,-5.71207,198162,2.55181e-09
3981.07,-7.15668,197452,1.62517e-09
5011.87,-8.95582,196558,1.0378e-09
6309.57,-11.2739,195126,6.61242e-10
7943.28,-14.0487,192626,4.28501e-10
10000,-17.33,189529,2.8191e-10
12589.3,-21.4041,184339,1.87923e-10
15848.9,-26.2517,176989,1.28275e-10
19952.6,-31.613,167296,9.09608e-11
25118.9,-37.445,154818,6.73127e-11
31622.8,-43.3888,139522,5.25115e-11
39810.7,-47.1655,119935,4.54548e-11
50118.7,-55.0111,98107.9,3.95087e-11
63095.7,-60.2792,89707,3.23778e-11
79432.8,-64.5143,74740.3,2.96979e-11
100000,-67.9187,62079.1,2.76668e-11
125893,-70.9557,51217.5,2.61124e-11
158489,-73.5039,41407.4,2.52928e-11
199526,-75.4573,33745.1,2.44203e-11
251189,-77.0783,27503.3,2.36361e-11
316228,-78.6537,22354.5,2.29629e-11
398107,-79.836,18280.1,2.22183e-11
501187,-81.4918,14703.6,2.18375e-11
630957,-82.7911,11867.7,2.1424e-11
794328,-84.0397,9538.05,2.1121e-11
1e+06,-85.136,7636.22,2.09174e-11
1.25893e+06,-86.0679,6098.94,2.07773e-11
1.58489e+06,-86.858,4856.9,2.07069e-11
1.99526e+06,-87.497,3862.08,2.06735e-11
2.51189e+06,-87.9741,3070.71,2.06468e-11
3.16228e+06,-88.3577,2438.89,2.06446e-11
3.98107e+06,-88.6348,1935.38,2.06622e-11
5.01187e+06,-88.8534,1539.58,2.06303e-11
6.30957e+06,-89.1675,1228.68,2.05318e-11
7.94328e+06,-91.6843,945.883,2.11919e-11
10000000,-89.8585,726.601,2.19041e-11

File: copperTape-MB10ug.csv
#Digilent WaveForms Impedance Analyzer
#Device Name: Discovery2
#Serial Number: SN:210321B19D0B
#Date Time:
#Digilent WaveForms Impedance Analyzer Trace#Trace: Trace
#Start: 1 Hz
#Stop: 1e+07 Hz
#Steps: 71
#Resistor: 10000 O
#Average: 1
#ProbeResistance: 1.04e+06 O
#ProbeCapacitance: 4.3e-11 F
#Compensation:none
#Wavegen: Wavegen1
#Amplitude: 1 V
#Offset: 0 V
#Amplification: 1 X
#Settle: 0.01 s
#MinPeriods: 16
#Scale: Logarithmic
#Channel: Channel 1
#Range: 5.53139 V
#Offset: -3.93045e-05 V
#Attenuation: 1 X
#Channel: Channel 2
#Range: 5.54075 V
#Offset: 6.34596e-06 V
#Attenuation: 1 X

Frequency (Hz),Trace th (deg),Trace |Z| (Ohm),Trace Cs (F)
1,-3.6234,68086.6,3.69875e-05
1.25893,-3.50934,67541.5,3.05787e-05
1.58489,-3.38604,67067.6,2.53508e-05
1.99526,-3.25752,66617.2,2.10719e-05
2.51189,-3.11602,66172.9,1.76147e-05
3.16228,-2.97309,65738.1,1.47609e-05
3.98107,-2.8214,65312.1,1.24354e-05
5.01187,-2.66936,64907.1,1.05051e-05
6.30957,-2.50828,64522.8,8.9329e-06
7.94328,-2.34241,64148.9,7.64208e-06
10,-2.17071,63788.7,6.58719e-06
12.5893,-2.00064,63466.7,5.70581e-06
15.8489,-1.83189,63182.2,4.97191e-06
19.9526,-1.64573,62915.9,4.41452e-06
25.1189,-1.47732,62693.6,3.92007e-06
31.6228,-1.30679,62493.4,3.53134e-06
39.8107,-1.15959,62331.9,3.16926e-06
50.1187,-0.98708,61938.8,2.97611e-06
63.0957,-0.914967,62055,2.54553e-06
79.4328,-0.780553,61963.8,2.37364e-06
100,-0.698472,61783.2,2.11317e-06
125.893,-0.60921,61816.5,1.92344e-06
158.489,-0.536941,61771.3,1.73475e-06
199.526,-0.522344,61760.1,1.41672e-06
251.189,-0.474639,61700.6,1.23964e-06
316.228,-0.444078,61638,1.05351e-06
398.107,-0.468384,61634.8,7.93449e-07
501.187,-0.448812,61616.9,6.57935e-07
630.957,-0.490253,61620.3,4.78414e-07
794.328,-0.568411,61587.4,3.27941e-07
1000,-0.633507,61565.2,2.33811e-07
1258.93,-0.751863,61558.1,1.56506e-07
1584.89,-0.891934,61577.6,1.04762e-07
1995.26,-1.13782,61596.8,6.5214e-08
2511.89,-1.37166,61530.3,4.30178e-08
3162.28,-1.72328,61511,2.72082e-08
3981.07,-2.09853,61482.2,1.77573e-08
5011.87,-2.60357,61464.8,1.13736e-08
6309.57,-3.28487,61371.4,7.17294e-09
7943.28,-4.09761,61314.9,4.57316e-09
10000,-5.13991,61237.1,2.90105e-09
12589.3,-6.43894,61082.4,1.84556e-09
15848.9,-8.05604,60845,1.17768e-09
19952.6,-10.1137,60459.4,7.51321e-10
25118.9,-12.5907,59830.8,4.85814e-10
31622.8,-15.6825,59049.1,3.1532e-10
39810.7,-19.0349,56230,2.17993e-10
50118.7,-25.4885,53965.5,1.36742e-10
63095.7,-28.9411,53152.2,9.80695e-11
79432.8,-34.5762,49833.6,7.08485e-11
100000,-40.6721,45483.2,5.36911e-11
125893,-46.8694,40591,4.26764e-11
158489,-52.9058,35445.7,3.55178e-11
199526,-57.9199,30268.5,3.1102e-11
251189,-62.6861,25481.6,2.79855e-11
316228,-66.9694,21228.5,2.57616e-11
398107,-70.729,17479.7,2.42286e-11
501187,-73.5855,14316.2,2.31241e-11
630957,-76.9245,11583.5,2.23558e-11
794328,-79.4185,9336.55,2.18314e-11
1e+06,-81.4207,7490.89,2.14869e-11
1.25893e+06,-83.1357,5989.69,2.12589e-11
1.58489e+06,-84.5224,4772.69,2.11371e-11
1.99526e+06,-85.6668,3799.28,2.10553e-11
2.51189e+06,-86.509,3018.27,2.10314e-11
3.16228e+06,-87.1593,2399.5,2.10007e-11
3.98107e+06,-87.6825,1904.8,2.10052e-11
5.01187e+06,-88.1032,1512.91,2.10012e-11
6.30957e+06,-88.5149,1207.43,2.0898e-11
7.94328e+06,-91.1034,930.139,2.15453e-11
10000000,-89.4409,714.808,2.22665e-11

File: copperTape-MB100ug.csv
#Digilent WaveForms Impedance Analyzer
#Device Name: Discovery2
#Serial Number: SN:210321B19D0B
#Date Time:
#Digilent WaveForms Impedance Analyzer Trace#Trace: Trace
#Start: 1 Hz
#Stop: 1e+07 Hz
#Steps: 71
#Resistor: 10000 O
#Average: 1
#ProbeResistance: 1.04e+06 O
#ProbeCapacitance: 4.3e-11 F
#Compensation:none
#Wavegen: Wavegen1
#Amplitude: 1 V
#Offset: 0 V
#Amplification: 1 X
#Settle: 0.01 s
#MinPeriods: 16
#Scale: Logarithmic
#Channel: Channel 1
#Range: 5.53139 V
#Offset: -3.93045e-05 V
#Attenuation: 1 X
#Channel: Channel 2
#Range: 5.54075 V
#Offset: 6.34596e-06 V
#Attenuation: 1 X

Frequency (Hz),Trace th (deg),Trace |Z| (Ohm),Trace Cs (F)
1,-11.8849,18862.5,4.097e-05
1.25893,-12.3327,18598.9,3.18243e-05
1.58489,-12.7246,18298.5,2.49149e-05
1.99526,-13.0358,17922.2,1.97318e-05
2.51189,-13.241,17501.1,1.58062e-05
3.16228,-13.3383,17052,1.27937e-05
3.98107,-13.3066,16582.5,1.04746e-05
5.01187,-13.1086,16103.1,8.69503e-06
6.30957,-12.7387,15626,7.32073e-06
7.94328,-12.1897,15165.6,6.25706e-06
10,-11.4655,14737,5.43306e-06
12.5893,-10.5964,14347.8,4.79157e-06
15.8489,-9.63193,14006.7,4.28491e-06
19.9526,-8.60533,13715.5,3.88685e-06
25.1189,-7.58102,13474.6,3.56426e-06
31.6228,-6.60729,13276.9,3.29447e-06
39.8107,-5.69569,13117.3,3.07091e-06
50.1187,-4.90486,12976,2.86224e-06
63.0957,-4.15595,12889.7,2.70028e-06
79.4328,-3.5121,12809.5,2.55338e-06
100,-2.9468,12739.7,2.4301e-06
125.893,-2.48955,12696.7,2.29229e-06
158.489,-2.09212,12657.7,2.17319e-06
199.526,-1.75294,12627.8,2.06499e-06
251.189,-1.47073,12600.7,1.95913e-06
316.228,-1.23596,12579.8,1.85482e-06
398.107,-1.04753,12564.6,1.74041e-06
501.187,-0.882965,12550.1,1.64198e-06
630.957,-0.754228,12540.5,1.52805e-06
794.328,-0.66043,12531.6,1.38713e-06
1000,-0.576444,12521.7,1.26336e-06
1258.93,-0.508358,12515,1.13854e-06
1584.89,-0.484556,12512.6,9.48975e-07
1995.26,-0.456557,12506,8.00447e-07
2511.89,-0.469481,12500.7,6.1858e-07
3162.28,-0.486758,12499.8,4.73949e-07
3981.07,-0.524131,12494.2,3.49783e-07
5011.87,-0.58329,12490.8,2.49733e-07
6309.57,-0.667289,12486.4,1.73461e-07
7943.28,-0.78372,12479.8,1.17378e-07
10000,-0.937468,12479.8,7.79466e-08
12589.3,-1.12432,12474.8,5.16473e-08
15848.9,-1.37792,12475.3,3.34741e-08
19952.6,-1.67981,12472.8,2.18163e-08
25118.9,-2.11059,12471.9,1.37944e-08
31622.8,-2.62666,12469.8,8.80707e-09
39810.7,-2.82188,12479.7,6.50695e-09
50118.7,-3.6932,12602.9,3.91174e-09
63095.7,-5.20088,12458.2,2.23361e-09
79432.8,-6.58249,12443.1,1.40469e-09
100000,-8.33099,12422.7,8.84225e-10
125893,-10.7195,12351.6,5.50275e-10
158489,-13.3426,12300,3.53779e-10
199526,-16.7306,12201.3,2.27099e-10
251189,-21.3228,11920.8,1.46173e-10
316228,-26.6679,11508.3,9.74403e-11
398107,-32.8794,10896.5,6.75824e-11
501187,-39.6693,10047.9,4.95086e-11
630957,-46.6424,9001.07,3.85427e-11
794328,-53.4182,7837.48,3.18364e-11
1e+06,-59.7102,6656.32,2.76905e-11
1.25893e+06,-65.1956,5534.36,2.51645e-11
1.58489e+06,-69.9246,4532.61,2.35882e-11
1.99526e+06,-73.7549,3673.54,2.26168e-11
2.51189e+06,-76.9998,2955.01,2.20058e-11
3.16228e+06,-79.5398,2366.28,2.16288e-11
3.98107e+06,-81.5587,1887.66,2.14105e-11
5.01187e+06,-83.1763,1504.44,2.12586e-11
6.30957e+06,-84.5361,1202.79,2.10673e-11
7.94328e+06,-87.8095,929.097,2.15813e-11
10000000,-86.813,714.264,2.23169e-11

File: copperTape-MB1000ug.csv
#Digilent WaveForms Impedance Analyzer
#Device Name: Discovery2
#Serial Number: SN:210321B19D0B
#Date Time:
#Digilent WaveForms Impedance Analyzer Trace#Trace: Trace
#Start: 1 Hz
#Stop: 1e+07 Hz
#Steps: 71
#Resistor: 1000 O
#Average: 1
#ProbeResistance: 1.04e+06 O
#ProbeCapacitance: 4.3e-11 F
#Compensation:none
#Wavegen: Wavegen1
#Amplitude: 1 V
#Offset: 0 V
#Amplification: 1 X
#Settle: 0.01 s
#MinPeriods: 16
#Scale: Logarithmic
#Channel: Channel 1
#Range: 5.53139 V
#Offset: -3.93045e-05 V
#Attenuation: 1 X
#Channel: Channel 2
#Range: 5.54075 V
#Offset: 6.34596e-06 V
#Attenuation: 1 X

Frequency (Hz),Trace th (deg),Trace |Z| (Ohm),Trace Cs (F)
1,-15.4446,2576.52,0.000231957
1.25893,-15.0297,2516.19,0.00019375
1.58489,-15.1435,2443.34,0.000157326
1.99526,-15.3575,2382.19,0.000126433
2.51189,-15.5797,2328.9,0.000101297
3.16228,-15.8165,2279.39,8.10108e-05
3.98107,-16.0451,2231.12,6.48292e-05
5.01187,-16.2797,2183.31,5.18847e-05
6.30957,-16.5257,2134.65,4.15428e-05
7.94328,-16.7533,2084.43,3.33473e-05
10,-16.9819,2032.54,2.68098e-05
12.5893,-17.1769,1979.15,2.16294e-05
15.8489,-17.3335,1923.34,1.75244e-05
19.9526,-17.4219,1865.19,1.42836e-05
25.1189,-17.4096,1805.28,1.17304e-05
31.6228,-17.2619,1744.47,9.72257e-06
39.8107,-16.9944,1683.64,8.12408e-06
50.1187,-16.4775,1623.68,6.89533e-06
63.0957,-15.7681,1566.1,5.92706e-06
79.4328,-14.8503,1512.61,5.16835e-06
100,-13.7091,1464.31,4.58619e-06
125.893,-12.5065,1421.81,4.106e-06
158.489,-11.2222,1385.43,3.72443e-06
199.526,-9.93551,1354.92,3.41205e-06
251.189,-8.69212,1329.55,3.15341e-06
316.228,-7.52292,1309.06,2.93661e-06
398.107,-6.45656,1292.54,2.75053e-06
501.187,-5.5042,1279.38,2.58772e-06
630.957,-4.65931,1268.82,2.44736e-06
794.328,-3.93004,1260.43,2.31935e-06
1000,-3.30438,1253.86,2.20214e-06
1258.93,-2.77747,1248.76,2.08922e-06
1584.89,-2.32947,1244.66,1.98497e-06
1995.26,-1.94888,1241.23,1.88968e-06
2511.89,-1.63655,1238.85,1.79082e-06
3162.28,-1.3708,1236.84,1.70097e-06
3981.07,-1.1839,1234.79,1.56698e-06
5011.87,-1.00265,1233.25,1.47151e-06
6309.57,-0.855961,1231.92,1.37064e-06
7943.28,-0.737242,1230.8,1.2652e-06
10000,-0.660414,1229.78,1.12282e-06
12589.3,-0.576521,1228.95,1.02236e-06
15848.9,-0.524284,1228.22,8.93526e-07
19952.6,-0.513597,1227.7,7.24827e-07
25118.9,-0.458355,1227.13,6.45438e-07
31622.8,-0.505912,1226.56,4.64712e-07
39810.7,-0.519648,1225.83,3.59592e-07
50118.7,-0.488222,1225.51,3.04097e-07
63095.7,-0.607363,1225.41,1.94187e-07
79432.8,-0.688914,1226.28,1.35893e-07
100000,-0.848353,1225.88,8.76868e-08
125893,-0.987735,1224.82,5.98756e-08
158489,-1.26928,1226.28,3.69685e-08
199526,-1.5041,1226.67,2.47735e-08
251189,-1.92073,1226.26,1.54161e-08
316228,-2.48076,1227.11,9.47567e-09
398107,-3.0569,1226.61,6.11168e-09
501187,-3.91539,1225.88,3.79364e-09
630957,-4.96079,1224.15,2.38287e-09
794328,-6.26506,1223.26,1.50095e-09
1e+06,-7.9318,1221.3,9.44355e-10
1.25893e+06,-10.0605,1216.25,5.95027e-10
1.58489e+06,-12.7432,1208.29,3.76773e-10
1.99526e+06,-16.1168,1194.17,2.40625e-10
2.51189e+06,-20.3472,1169.6,1.558e-10
3.16228e+06,-25.4032,1129.13,1.03905e-10
3.98107e+06,-31.2269,1068.32,7.21825e-11
5.01187e+06,-37.5823,987.178,5.27431e-11
6.30957e+06,-44.0547,889.7,4.07734e-11
7.94328e+06,-52.7147,770.815,3.26708e-11
10000000,-57.4393,629.046,3.00194e-11

File: copperTape-MB10000ug.csv
#Digilent WaveForms Impedance Analyzer
#Device Name: Discovery2
#Serial Number: SN:210321B19D0B
#Date Time:
#Digilent WaveForms Impedance Analyzer Trace#Trace: Trace
#Start: 1 Hz
#Stop: 1e+07 Hz
#Steps: 71
#Resistor: 1000 O
#Average: 1
#ProbeResistance: 1.04e+06 O
#ProbeCapacitance: 4.3e-11 F
#Compensation:none
#Wavegen: Wavegen1
#Amplitude: 1 V
#Offset: 0 V
#Amplification: 1 X
#Settle: 0.01 s
#MinPeriods: 16
#Scale: Logarithmic
#Channel: Channel 1
#Range: 5.53139 V
#Offset: -3.93045e-05 V
#Attenuation: 1 X
#Channel: Channel 2
#Range: 5.54075 V
#Offset: 6.34596e-06 V
#Attenuation: 1 X

Frequency (Hz),Trace th (deg),Trace |Z| (Ohm),Trace Cs (F)
1,-14.6078,664.913,0.000949092
1.25893,-17.4165,702.374,0.000601344
1.58489,-19.7268,713.548,0.000416944
1.99526,-20.9474,706.698,0.000315717
2.51189,-21.7542,695.138,0.000245931
3.16228,-22.4368,681.704,0.000193438
3.98107,-23.0977,667.068,0.000152768
5.01187,-23.7668,651.326,0.000120976
6.30957,-24.4595,634.521,9.60112e-05
7.94328,-25.1986,616.689,7.6312e-05
10,-25.9669,597.795,6.08051e-05
12.5893,-26.7484,578.013,4.85958e-05
15.8489,-27.5582,557.341,3.89446e-05
19.9526,-28.3518,535.561,3.13635e-05
25.1189,-29.1026,512.962,2.53959e-05
31.6228,-29.7885,489.539,2.06944e-05
39.8107,-30.3477,465.591,1.69946e-05
50.1187,-30.8219,441.791,1.40287e-05
63.0957,-31.0937,417.44,1.17006e-05
79.4328,-31.111,393.049,9.8659e-06
100,-30.7701,368.62,8.43948e-06
125.893,-30.3299,345.465,7.24676e-06
158.489,-29.5226,323.063,6.30799e-06
199.526,-28.4902,301.945,5.53816e-06
251.189,-27.1673,282.296,4.91573e-06
316.228,-25.608,264.491,4.40264e-06
398.107,-23.8422,248.536,3.97936e-06
501.187,-21.9078,234.616,3.62761e-06
630.957,-19.8486,222.813,3.33422e-06
794.328,-17.7325,212.863,3.0905e-06
1000,-15.6582,204.797,2.87936e-06
1258.93,-13.6711,198.267,2.69785e-06
1584.89,-11.8307,193.081,2.53679e-06
1995.26,-10.1193,188.974,2.40243e-06
2511.89,-8.6178,185.74,2.27656e-06
3162.28,-7.32144,183.323,2.15433e-06
3981.07,-6.1854,181.188,2.04781e-06
5011.87,-5.17717,179.583,1.95964e-06
6309.57,-4.36102,178.273,1.86075e-06
7943.28,-3.65111,177.396,1.77365e-06
10000,-3.03826,176.488,1.7014e-06
12589.3,-2.50728,175.865,1.64323e-06
15848.9,-2.05355,175.363,1.59805e-06
19952.6,-1.68245,174.897,1.55339e-06
25118.9,-1.36396,174.505,1.52537e-06
31622.8,-1.13029,174.302,1.46379e-06
39810.7,-0.850809,174.216,1.54539e-06
50118.7,-0.599303,173.905,1.74579e-06
63095.7,-0.357135,173.798,2.32845e-06
79432.8,-0.160517,173.702,4.11733e-06
100000,-0.0141076,173.87,3.71762e-05
125893,0.151177,174.096,-2.75213e-06
158489,0.430766,173.928,-7.67957e-07
199526,0.606635,174.172,-4.32558e-07
251189,0.802099,174.378,-2.5956e-07
316228,0.906237,174.907,-1.81934e-07
398107,1.12187,175.018,-1.16666e-07
501187,1.3441,175.326,-7.72155e-08
630957,1.74575,175.699,-4.71257e-08
794328,2.17262,176.362,-2.9968e-08
1e+06,2.60282,177.286,-1.97685e-08
1.25893e+06,3.05805,178.438,-1.32805e-08
1.58489e+06,3.52787,180.505,-9.04096e-09
1.99526e+06,3.91372,183.127,-6.38175e-09
2.51189e+06,4.11887,186.153,-4.73881e-09
3.16228e+06,4.14414,189.617,-3.67291e-09
3.98107e+06,3.88905,192.938,-3.05503e-09
5.01187e+06,3.37748,195.958,-2.75067e-09
6.30957e+06,2.70839,198.582,-2.68815e-09
7.94328e+06,0.527012,199.026,-1.09451e-08
10000000,0.231641,193.594,-2.03347e-08

File: copperTape-PBSx0.1.csv
#Digilent WaveForms Impedance Analyzer
#Device Name: Discovery2
#Serial Number: SN:210321B19D0B
#Date Time:
#Digilent WaveForms Impedance Analyzer Trace#Trace: Trace
#Start: 1 Hz
#Stop: 1e+07 Hz
#Steps: 71
#Resistor: 100 O
#Average: 1
#ProbeResistance: 1.04e+06 O
#ProbeCapacitance: 4.3e-11 F
#Compensation:none
#Wavegen: Wavegen1
#Amplitude: 0.01 V
#Offset: 0 V
#Amplification: 1 X
#Settle: 0.01 s
#MinPeriods: 16
#Scale: Logarithmic
#Channel: Channel 1
#Range: 5.53139 V
#Offset: -3.93045e-05 V
#Attenuation: 1 X
#Channel: Channel 2
#Range: 5.54075 V
#Offset: 6.34596e-06 V
#Attenuation: 1 X

Frequency (Hz),Trace th (deg),Trace |Z| (Ohm),Trace Rs (Ohm),Trace Xs (Ohm)
1,-35.3079,1452.19,1185.07,-839.326
1.25893,-39.0339,1253.72,973.856,-789.568
1.58489,-39.1717,1167.33,904.981,-737.342
1.99526,-40.0702,1062.83,813.339,-684.173
2.51189,-39.2299,987.631,765.033,-624.611
3.16228,-39.4739,888.907,686.159,-565.102
3.98107,-39.5955,774.501,596.802,-493.639
5.01187,-38.5214,721.046,564.128,-449.073
6.30957,-38.4224,648.522,508.085,-403.027
7.94328,-37.478,589.104,467.505,-358.444
10,-36.5209,527.476,423.9,-313.909
12.5893,-36.2107,485.989,392.12,-287.102
15.8489,-34.733,444.993,365.702,-253.536
19.9526,-33.8028,402.547,334.499,-223.951
25.1189,-31.9785,365.016,309.624,-193.313
31.6228,-30.5126,341.287,294.025,-173.281
39.8107,-29.4835,312.343,271.894,-153.727
50.1187,-27.1014,287.588,256.011,-131.016
63.0957,-25.241,269.028,243.342,-114.721
79.4328,-23.1898,255.094,234.483,-100.45
100,-21.3249,239.077,222.708,-86.9418
125.893,-19.2112,227.655,214.978,-74.9104
158.489,-17.0553,218.224,208.627,-64.0039
199.526,-15.3582,208.109,200.677,-55.1183
251.189,-13.7764,200.616,194.844,-47.7732
316.228,-11.4453,196.464,192.557,-38.985
398.107,-9.34902,191.358,188.816,-31.0857
501.187,-8.60179,190.778,188.632,-28.534
630.957,-6.72077,188.237,186.943,-22.0295
794.328,-5.02823,184.815,184.104,-16.1984
1000,-4.61851,181.805,181.214,-14.6391
1258.93,-4.70168,181.344,180.734,-14.8644
1584.89,-3.07007,181.331,181.071,-9.71157
1995.26,-2.76386,181.507,181.296,-8.7522
2511.89,-2.53958,178.811,178.635,-7.92301
3162.28,-1.67811,181.534,181.456,-5.31611
3981.07,-0.77168,181.528,181.511,-2.4448
5011.87,-0.190517,179.835,179.834,-0.597978
6309.57,-0.990024,182.355,182.328,-3.15078
7943.28,-0.639861,177.772,177.761,-1.98526
10000,-1.55927,180.364,180.297,-4.90789
12589.3,-0.124329,180.764,180.763,-0.392249
15848.9,0.300692,182.506,182.504,0.957798
19952.6,0.0489312,178.006,178.006,0.152019
25118.9,1.53115,179.846,179.782,4.80557
31622.8,-0.886188,183.373,183.351,-2.8361
39810.7,-0.686846,185.391,185.378,-2.22237
50118.7,-1.57489,178.161,178.094,-4.8965
63095.7,1.03507,186.885,186.855,3.37598
79432.8,1.89001,180.564,180.466,5.95518
100000,2.07862,175.76,175.645,6.37497
125893,0.100847,187.701,187.701,0.330374
158489,2.42795,194.783,194.609,8.25161
199526,-5.59903,170.078,169.266,-16.5938
251189,-1.09732,189.48,189.445,-3.62866
316228,1.3803,173.142,173.091,4.17071
398107,-1.38165,179.238,179.186,-4.32179
501187,1.61746,179.293,179.222,5.06078
630957,-2.82578,179.637,179.419,-8.85596
794328,-0.853423,178.157,178.138,-2.65356
1e+06,-1.62993,182.965,182.891,-5.20424
1.25893e+06,-0.946104,183.326,183.301,-3.02705
1.58489e+06,-0.807963,181.7,181.682,-2.56218
1.99526e+06,-2.46899,180.172,180.005,-7.76159
2.51189e+06,-2.9658,183.388,183.142,-9.48847
3.16228e+06,-4.53555,181.185,180.617,-14.3276
3.98107e+06,-4.87232,182.818,182.158,-15.5278
5.01187e+06,-7.88186,183.722,181.987,-25.194
6.30957e+06,-7.08989,188.56,187.118,-23.2732
7.94328e+06,-9.44496,189.075,186.512,-31.0273
10000000,-10.9527,197.998,194.391,-37.6192