Folder: ISMM_EPSRC_brain/impedance/2021-09-23 PBS

Note: README_data_processing.rst
Quantitative monitoring and modelling of retrodialysis drug delivery in a brain phantom
=======================================================================================

This is the dataset and software supporting the study *Quantitative 
monitoring and modelling of retrodialysis drug delivery in a brain phantom*
by Etienne Rognin, Niamh Willis-Fox, Ronan Daly, Institute for Manufacturing, 
Department of Engineering, University of Cambridge, 17 Charles Babbage Road, 
Cambridge CB3 0FS, United Kingdom.


License
-------
Copyright (C) 2022 by Etienne Rognin <ecr43 at cam.ac.uk>, Niamh Willis-Fox, 
Ronan Daly <rd439 at cam.ac.uk>.

``Tiff`` images fall under the Creative Commons Attribution 4.0 license. 
You must give appropriate credit, provide a link to the license, and 
indicate if changes were made. You may do so in any reasonable manner, but 
not in any way that suggests the licensor endorses you or your use. 

Software (for example ``.ipynb`` IPython Notebook files) fall under BSD 
Zero clause license below:

Permission to use, copy, modify, and/or distribute this software for any purpose
with or without fee is hereby granted.

THE SOFTWARE IS PROVIDED "AS IS" AND THE AUTHOR DISCLAIMS ALL WARRANTIES WITH 
REGARD TO THIS SOFTWARE INCLUDING ALL IMPLIED WARRANTIES OF MERCHANTABILITY AND
FITNESS. IN NO EVENT SHALL THE AUTHOR BE LIABLE FOR ANY SPECIAL, DIRECT,
INDIRECT, OR CONSEQUENTIAL DAMAGES OR ANY DAMAGES WHATSOEVER RESULTING FROM LOSS
OF USE, DATA OR PROFITS, WHETHER IN AN ACTION OF CONTRACT, NEGLIGENCE OR OTHER
TORTIOUS ACTION, ARISING OUT OF OR IN CONNECTION WITH THE USE OR PERFORMANCE OF
THIS SOFTWARE.



Contents
--------

There are two main folders:

 1. ``example`` which contains all the relevant scripts and a small dataset
    of raw images. Use this for a minimal example.
   
 2. ``supporting data`` contains the data and software used to support the 
    present study. There is one folder per experiment. The naming convention 
    is ``date flow-rate``. Usage of each case folder is the same as the main 
    ``example`` folder. There is also a ``model`` folder containing scripts
    to analyse the whole dataset and for special cases described in the 
    paper.


Usage
-----

Raw images are stored in zip files which must be unzipped first before 
running data analysis scripts.

    
The software is a set of self-documented IPython Notebook files. The use of
these scripts requires the following to be installed:
  - Python 3.7+
  - Jupyter Notebook
  - Python modules: numpy, skimage, matplotlib, ipywidgets, tqdm, pywt, 
    natsort, abel
    
For each experimental folder, three scripts must be run sequentially:

 1. ``1 Preprocessing.ipynb`` loads raw images and applies filtering. The 
    output is absorbance fields (``A.npy`` Python Numpy file) and probe
    mask (``mask.npy``). Coordinates of the area of interest are stored in
    Python file ``cuvette.pickle``.
 
 2. ``2 Integrate.ipynb`` measures the mass seen in the image sta

File: copperTape-PBSx1-1V.csv
#Digilent WaveForms Impedance Analyzer
#Device Name: Discovery2
#Serial Number: SN:210321B19D0B
#Date Time:
#Digilent WaveForms Impedance Analyzer Trace#Trace: Trace
#Start: 0.1 Hz
#Stop: 1e+07 Hz
#Steps: 81
#Resistor: 100 O
#Average: 1
#ProbeResistance: 1.04e+06 O
#ProbeCapacitance: 4.3e-11 F
#Compensation:none
#Wavegen: Wavegen1
#Amplitude: 1 V
#Offset: 0 V
#Amplification: 1 X
#Settle: 0.01 s
#MinPeriods: 16
#Scale: Logarithmic
#Channel: Channel 1
#Range: 5.53139 V
#Offset: -3.93045e-05 V
#Attenuation: 1 X
#Channel: Channel 2
#Range: 5.54075 V
#Offset: 6.34596e-06 V
#Attenuation: 1 X

Frequency (Hz),Trace th (deg),Trace |Z| (Ohm),Trace Rs (Ohm)
0.1,-34.2011,773.155,639.453
0.125893,-36.1681,796.008,642.609
0.158489,-37.7449,772.632,610.954
0.199526,-39.5156,735.787,567.624
0.251189,-41.3268,688.529,517.054
0.316228,-42.9619,637.834,466.771
0.398107,-44.3437,580.395,415.075
0.501187,-45.3821,521.721,366.444
0.630957,-46.1044,465.19,322.538
0.794328,-46.6123,413.426,283.995
1,-46.9559,367.007,250.504
1.25893,-47.093,324.786,221.118
1.58489,-47.0553,286.856,195.432
1.99526,-46.8566,253.427,173.3
2.51189,-46.4972,224.862,154.793
3.16228,-46.0284,200.75,139.381
3.98107,-45.583,180.238,126.144
5.01187,-45.1574,163.436,115.249
6.30957,-44.7378,149.388,106.116
7.94328,-44.3786,136.836,97.8015
10,-44.0322,125.565,90.2748
12.5893,-43.6579,115.117,83.2844
15.8489,-43.2228,105.509,76.8843
19.9526,-42.6376,96.6209,71.0795
25.1189,-41.908,88.5065,65.8682
31.6228,-41.0886,81.2766,61.2577
39.8107,-40.1332,74.4651,56.9321
50.1187,-38.9668,67.8007,52.7157
63.0957,-37.4584,61.4148,48.7507
79.4328,-35.6603,55.5769,45.1555
100,-33.6523,50.3999,41.9537
125.893,-31.613,46.0213,39.1921
158.489,-29.6344,42.3288,36.7922
199.526,-27.7986,39.2304,34.7029
251.189,-26.0605,36.5903,32.8702
316.228,-24.3077,34.2921,31.252
398.107,-22.5253,32.2964,29.8325
501.187,-20.7172,30.5653,28.5889
630.957,-18.8946,29.0853,27.5181
794.328,-17.0915,27.8201,26.5914
1000,-15.3341,26.7522,25.7998
1258.93,-13.6206,25.847,25.1201
1584.89,-12.011,25.0971,24.5477
1995.26,-10.4941,24.4784,24.0689
2511.89,-9.09576,23.9812,23.6796
3162.28,-7.79998,23.5712,23.3532
3981.07,-6.64801,23.2486,23.0923
5011.87,-5.61662,23.0012,22.8908
6309.57,-4.72445,22.7931,22.7156
7943.28,-3.94899,22.6399,22.5861
10000,-3.25401,22.518,22.4817
12589.3,-2.66685,22.4352,22.4109
15848.9,-2.17844,22.3584,22.3422
19952.6,-1.74056,22.3064,22.2961
25118.9,-1.39725,22.2755,22.2689
31622.8,-1.01589,22.2236,22.2201
39810.7,-0.767194,22.1973,22.1953
50118.7,-0.628306,22.202,22.2006
63095.7,-0.309702,22.1853,22.185
79432.8,-0.0587066,22.1799,22.1799
100000,0.133738,22.1515,22.1515
125893,0.40202,22.1762,22.1756
158489,0.662853,22.1963,22.1948
199526,0.97773,22.2103,22.2071
251189,1.19775,22.2481,22.2432
316228,1.50046,22.2387,22.231
398107,1.86178,22.2628,22.2511
501187,2.36105,22.271,22.2521
630957,3.00644,22.2778,22.2471
794328,3.75171,22.3187,22.2709
1000000,4.73635,22.3604,22.284
1.25893e+06,5.90116,22.4153,22.2965
1.58489e+06,7.40804,22.4826,22.295
1.99526e+06,9.28884,22.6233,22.3266
2.51189e+06,11.586,22.8282,22.3631
3.16228e+06,14.4141,23.1152,22.3876
3.98107e+06,17.856,23.5722,22.4368
5.01187e+06,22.0846,24.2964,22.5138
6.30957e+06,26.8208,25.3518,22.6245
7.94328e+06,32.387,26.8601,22.682
10000000,38.3172,28.9086,22.6814

File: copperTape-PBSx1-1V_day2.csv
#Digilent WaveForms Impedance Analyzer
#Device Name: Discovery2
#Serial Number: SN:210321B19D0B
#Date Time:
#Digilent WaveForms Impedance Analyzer Trace#Trace: Trace
#Start: 0.1 Hz
#Stop: 1e+07 Hz
#Steps: 81
#Resistor: 100 O
#Average: 1
#ProbeResistance: 1.04e+06 O
#ProbeCapacitance: 4.3e-11 F
#Compensation:none
#Wavegen: Wavegen1
#Amplitude: 1 V
#Offset: 0 V
#Amplification: 1 X
#Settle: 0.01 s
#MinPeriods: 16
#Scale: Logarithmic
#Channel: Channel 1
#Range: 5.53139 V
#Offset: -3.93045e-05 V
#Attenuation: 1 X
#Channel: Channel 2
#Range: 5.54075 V
#Offset: 6.34596e-06 V
#Attenuation: 1 X

Frequency (Hz),Trace th (deg),Trace |Z| (Ohm),Trace Rs (Ohm)
0.1,-33.5913,765.762,637.884
0.125893,-36.3229,651.998,525.31
0.158489,-39.4021,624.2,482.325
0.199526,-41.5856,594.61,444.747
0.251189,-43.3338,557.109,405.224
0.316228,-44.887,525.67,372.437
0.398107,-46.251,495.089,342.354
0.501187,-47.3117,464.083,314.653
0.630957,-48.0555,432.204,288.89
0.794328,-48.4087,397.485,263.856
1,-48.4885,361.24,239.419
1.25893,-48.5684,326.086,215.779
1.58489,-48.806,292.931,192.928
1.99526,-49.1546,261.502,171.028
2.51189,-49.5536,232.496,150.829
3.16228,-49.9161,206.797,133.158
3.98107,-50.1844,184.197,117.945
5.01187,-50.3311,164.239,104.842
6.30957,-50.3164,147.232,94.0147
7.94328,-50.0687,133.274,85.5445
10,-49.6245,121.5,78.7066
12.5893,-49.0882,111.124,72.7748
15.8489,-48.4932,101.84,67.4903
19.9526,-47.8545,93.2875,62.5973
25.1189,-47.1664,85.5031,58.1311
31.6228,-46.4076,78.4796,54.1135
39.8107,-45.5683,72.0156,50.4151
50.1187,-44.6806,66.1592,47.0417
63.0957,-43.6646,60.6464,43.8712
79.4328,-42.3967,55.3719,40.8918
100,-40.8015,50.3658,38.1258
125.893,-38.8544,45.7974,35.6644
158.489,-36.5804,41.7155,33.4985
199.526,-34.021,38.1575,31.6262
251.189,-31.2571,35.1301,30.0309
316.228,-28.3694,32.5797,28.667
398.107,-25.426,30.4844,27.5317
501.187,-22.5143,28.7865,26.5925
630.957,-19.6568,27.422,25.8239
794.328,-16.9747,26.3482,25.2003
1000,-14.4958,25.5189,24.7065
1258.93,-12.2727,24.8854,24.3167
1584.89,-10.3216,24.4148,24.0197
1995.26,-8.62766,24.0462,23.7741
2511.89,-7.14927,23.7694,23.5846
3162.28,-5.95804,23.5622,23.4349
3981.07,-4.93921,23.3953,23.3085
5011.87,-4.07035,23.2858,23.2271
6309.57,-3.36377,23.1805,23.1406
7943.28,-2.73942,23.0997,23.0733
10000,-2.25022,23.0434,23.0256
12589.3,-1.77824,22.9962,22.9852
15848.9,-1.4742,22.9445,22.9369
19952.6,-1.16358,22.9246,22.9199
25118.9,-0.880136,22.9096,22.9069
31622.8,-0.682889,22.8873,22.8857
39810.7,-0.465185,22.8675,22.8668
50118.7,-0.281448,22.8387,22.8384
63095.7,-0.0901285,22.8501,22.8501
79432.8,0.168919,22.8561,22.856
100000,0.326814,22.8677,22.8673
125893,0.476804,22.8863,22.8855
158489,0.759639,22.8789,22.8769
199526,1.04492,22.8947,22.8909
251189,1.31012,22.9508,22.9448
316228,1.51745,22.9884,22.9803
398107,1.84677,22.9784,22.9665
501187,2.33156,22.9651,22.9461
630957,2.96573,22.9764,22.9456
794328,3.67536,23.0136,22.9663
1000000,4.58404,23.0537,22.9799
1.25893e+06,5.74255,23.1073,22.9914
1.58489e+06,7.17336,23.1801,22.9987
1.99526e+06,9.00461,23.317,23.0296
2.51189e+06,11.2392,23.4993,23.0487
3.16228e+06,14.0226,23.785,23.0762
3.98107e+06,17.4116,24.2319,23.1216
5.01187e+06,21.5355,24.9212,23.1814
6.30957e+06,26.2384,26.0213,23.3401
7.94328e+06,31.4038,27.4213,23.4045
10000000,37.5169,29.4556,23.3634

File: copperTape-PBSx1-10mV.csv
#Digilent WaveForms Impedance Analyzer
#Device Name: Discovery2
#Serial Number: SN:210321B19D0B
#Date Time:
#Digilent WaveForms Impedance Analyzer Trace#Trace: Trace
#Start: 0.1 Hz
#Stop: 1e+07 Hz
#Steps: 81
#Resistor: 100 O
#Average: 1
#ProbeResistance: 1.04e+06 O
#ProbeCapacitance: 4.3e-11 F
#Compensation:none
#Wavegen: Wavegen1
#Amplitude: 0.01 V
#Offset: 0 V
#Amplification: 1 X
#Settle: 0.01 s
#MinPeriods: 16
#Scale: Logarithmic
#Channel: Channel 1
#Range: 5.53139 V
#Offset: -3.93045e-05 V
#Attenuation: 1 X
#Channel: Channel 2
#Range: 5.54075 V
#Offset: 6.34596e-06 V
#Attenuation: 1 X

Frequency (Hz),Trace th (deg),Trace |Z| (Ohm),Trace Rs (Ohm)
0.1,-18.7725,903.17,855.125
0.125893,-22.3386,1091.29,1009.4
0.158489,-24.5703,1091.65,992.799
0.199526,-26.4738,1060.82,949.584
0.251189,-29.4318,1060.36,923.513
0.316228,-32.8128,991.114,832.978
0.398107,-34.9423,880.595,721.849
0.501187,-37.8065,812.844,642.216
0.630957,-40.5166,729.437,554.531
0.794328,-42.5022,674.012,496.916
1,-44.732,581.984,413.445
1.25893,-45.8704,515.649,359.038
1.58489,-46.5229,454.697,312.86
1.99526,-47.2482,402.35,273.125
2.51189,-47.7638,350.052,235.301
3.16228,-47.5719,309.65,208.91
3.98107,-47.2031,269.547,183.131
5.01187,-46.5303,239.458,164.74
6.30957,-45.7988,211.923,147.749
7.94328,-44.7607,188.752,134.024
10,-44.1781,168.291,120.694
12.5893,-43.0543,149.673,109.367
15.8489,-41.9971,134.595,100.028
19.9526,-41.0048,120.668,91.0624
25.1189,-39.8972,109.664,84.134
31.6228,-38.3973,98.8739,77.4897
39.8107,-37.9854,89.6343,70.6469
50.1187,-37.1563,81.6181,65.0488
63.0957,-36.0235,73.8325,59.7139
79.4328,-35.1707,67.6361,55.2884
100,-34.4583,62.3847,51.4386
125.893,-33.6099,56.7494,47.2623
158.489,-32.5782,52.252,44.0306
199.526,-31.792,47.4647,40.3433
251.189,-30.8566,43.8678,37.6585
316.228,-30.0201,40.5742,35.1312
398.107,-28.4467,37.5334,33.0016
501.187,-27.2899,34.3145,30.4953
630.957,-25.9434,32.1994,28.9545
794.328,-23.6307,29.697,27.2068
1000,-20.9495,28.2188,26.3534
1258.93,-19.1147,26.7375,25.2634
1584.89,-17.7748,25.2444,24.0393
1995.26,-16.0632,24.5772,23.6176
2511.89,-11.1668,23.1881,22.7491
3162.28,-10.2589,23.3326,22.9596
3981.07,-6.97926,22.4086,22.2426
5011.87,-8.492,22.767,22.5174
6309.57,-6.35253,22.2632,22.1265
7943.28,-1.94495,22.5324,22.5194
10000,-4.27942,21.4827,21.4228
12589.3,-3.87616,22.2278,22.177
15848.9,-3.0676,21.7332,21.7021
19952.6,2.17341,22.3152,22.2991
25118.9,0.294965,22.0973,22.097
31622.8,-5.76803,23.9436,23.8224
39810.7,3.05955,21.6581,21.6273
50118.7,-0.836837,23.2503,23.2478
63095.7,5.59255,22.9997,22.8902
79432.8,-2.11043,20.2554,20.2417
100000,0.41555,19.3807,19.3802
125893,6.47385,21.3477,21.2116
158489,-2.25755,22.0276,22.0106
199526,5.53695,22.777,22.6707
251189,6.12495,20.5832,20.4657
316228,-1.35916,21.8052,21.7991
398107,1.2952,20.5088,20.5036
501187,2.11864,23.3622,23.3462
630957,-0.632044,22.0383,22.037
794328,2.71891,23.0174,22.9915
1000000,-0.0911604,22.7992,22.7992
1.25893e+06,2.36066,22.5393,22.5202
1.58489e+06,7.59089,23.8589,23.6498
1.99526e+06,7.27153,22.4608,22.2801
2.51189e+06,11.2995,22.3673,21.9337
3.16228e+06,10.784,22.6578,22.2576
3.98107e+06,14.8892,24.4237,23.6037
5.01187e+06,16.211,25.3675,24.3589
6.30957e+06,21.1682,27.3352,25.4908
7.94328e+06,29.5111,28.4195,24.7323
10000000,31.7118,32.1849,27.3798

File: copperTape-PBSx1-20mV_day2.csv
#Digilent WaveForms Impedance Analyzer
#Device Name: Discovery2
#Serial Number: SN:210321B19D0B
#Date Time:
#Digilent WaveForms Impedance Analyzer Trace#Trace: Trace
#Start: 0.1 Hz
#Stop: 1e+07 Hz
#Steps: 81
#Resistor: 100 O
#Average: 1
#ProbeResistance: 1.04e+06 O
#ProbeCapacitance: 4.3e-11 F
#Compensation:none
#Wavegen: Wavegen1
#Amplitude: 0.02 V
#Offset: 0 V
#Amplification: 1 X
#Settle: 0.01 s
#MinPeriods: 16
#Scale: Logarithmic
#Channel: Channel 1
#Range: 5.53139 V
#Offset: -3.93045e-05 V
#Attenuation: 1 X
#Channel: Channel 2
#Range: 5.54075 V
#Offset: 6.34596e-06 V
#Attenuation: 1 X

Frequency (Hz),Trace th (deg),Trace |Z| (Ohm),Trace Rs (Ohm)
0.1,-35.587,2310.96,1879.35
0.125893,-35.5839,2138.44,1739.12
0.158489,-38.5538,1917.63,1499.63
0.199526,-38.9031,1710.68,1331.26
0.251189,-41.2289,1576.86,1185.93
0.316228,-42.271,1429.47,1057.77
0.398107,-43.0817,1243.4,908.154
0.501187,-43.9197,1117.78,805.152
0.630957,-44.1451,1010.95,725.435
0.794328,-44.9703,907.166,641.795
1,-45.1266,800.602,564.859
1.25893,-46.0875,707.741,490.86
1.58489,-46.4032,630.095,434.5
1.99526,-46.8018,559.16,382.759
2.51189,-47.4714,498.059,336.667
3.16228,-47.1932,441.291,299.87
3.98107,-47.5917,393.029,265.062
5.01187,-47.7357,348.56,234.425
6.30957,-47.7888,308.967,207.584
7.94328,-48.1169,274.039,182.952
10,-48.3273,240.529,159.922
12.5893,-48.473,212.771,141.062
15.8489,-48.7137,187.536,123.74
19.9526,-48.8296,165.015,108.63
25.1189,-48.944,145.978,95.8779
31.6228,-48.6841,128.097,84.5711
39.8107,-48.5947,112.26,74.247
50.1187,-48.1425,98.7447,65.8904
63.0957,-47.6878,86.7064,58.3682
79.4328,-46.9748,76.1596,51.9652
100,-45.9365,67.0748,46.6475
125.893,-44.5821,59.1518,42.1306
158.489,-42.8927,52.254,38.2828
199.526,-40.5326,46.2939,35.185
251.189,-38.1356,41.3965,32.5604
316.228,-35.6311,37.2324,30.2619
398.107,-32.2583,33.6459,28.4527
501.187,-29.0735,31.1649,27.238
630.957,-25.5745,29.1359,26.2813
794.328,-21.8705,27.125,25.1728
1000,-19.0319,26.4021,24.9589
1258.93,-16.9492,25.2892,24.1907
1584.89,-14.2746,24.5495,23.7916
1995.26,-10.7543,24.1524,23.7282
2511.89,-10.0829,23.5764,23.2122
3162.28,-8.02076,23.1917,22.9648
3981.07,-6.22574,22.9296,22.7943
5011.87,-5.02732,22.9329,22.8447
6309.57,-4.39964,22.9354,22.8679
7943.28,-3.6698,22.8609,22.814
10000,-4.14711,23.1087,23.0482
12589.3,-1.36985,22.6339,22.6274
15848.9,-2.48423,23.0111,22.9895
19952.6,-1.50378,22.9202,22.9123
25118.9,0.857678,22.8704,22.8678
31622.8,-1.28729,22.6483,22.6426
39810.7,-0.889171,22.9028,22.9001
50118.7,-1.72682,22.438,22.4278
63095.7,-1.32943,22.8374,22.8312
79432.8,0.172093,23.561,23.5609
100000,-2.01996,22.5769,22.5629
125893,-2.39443,22.0425,22.0233
158489,-4.51644,22.5866,22.5165
199526,0.657327,21.2459,21.2445
251189,1.27049,21.0974,21.0922
316228,1.57897,23.4951,23.4862
398107,0.72282,23.2046,23.2027
501187,1.65983,23.0392,23.0296
630957,3.01871,23.3498,23.3174
794328,3.26549,22.9478,22.9105
1000000,4.78228,22.828,22.7485
1.25893e+06,4.11227,22.8163,22.7576
1.58489e+06,6.9412,23.58,23.4072
1.99526e+06,7.57943,23.102,22.9002
2.51189e+06,9.01762,23.7667,23.4729
3.16228e+06,12.8849,23.3902,22.8013
3.98107e+06,14.7572,24.4962,23.6881
5.01187e+06,20.358,24.4431,22.9164
6.30957e+06,24.2414,25.6959,23.4301
7.94328e+06,30.5161,27.693,23.8571
10000000,36.2741,31.1872,25.143

File: copperTape-PBSx1-50mV_day2.csv
#Digilent WaveForms Impedance Analyzer
#Device Name: Discovery2
#Serial Number: SN:210321B19D0B
#Date Time:
#Digilent WaveForms Impedance Analyzer Trace#Trace: Trace
#Start: 0.1 Hz
#Stop: 1e+07 Hz
#Steps: 81
#Resistor: 100 O
#Average: 1
#ProbeResistance: 1.04e+06 O
#ProbeCapacitance: 4.3e-11 F
#Compensation:none
#Wavegen: Wavegen1
#Amplitude: 0.05 V
#Offset: 0 V
#Amplification: 1 X
#Settle: 0.01 s
#MinPeriods: 16
#Scale: Logarithmic
#Channel: Channel 1
#Range: 5.53139 V
#Offset: -3.93045e-05 V
#Attenuation: 1 X
#Channel: Channel 2
#Range: 5.54075 V
#Offset: 6.34596e-06 V
#Attenuation: 1 X

Frequency (Hz),Trace th (deg),Trace |Z| (Ohm),Trace Rs (Ohm)
0.1,-35.52,2058.76,1675.65
0.125893,-36.4675,1838.24,1478.3
0.158489,-37.1966,1700.56,1354.6
0.199526,-38.7078,1553.98,1212.64
0.251189,-39.3575,1424.36,1101.32
0.316228,-40.3657,1291.19,983.791
0.398107,-41.2242,1166.65,877.482
0.501187,-42.2131,1063.26,787.507
0.630957,-42.94,959.635,702.517
0.794328,-43.3272,867.836,631.305
1,-44.0801,776.654,557.923
1.25893,-44.5615,697.154,496.721
1.58489,-45.1648,623.93,439.915
1.99526,-45.5961,559.535,391.513
2.51189,-46.1252,501.411,347.52
3.16228,-46.4922,446.618,307.475
3.98107,-46.87,397.129,271.5
5.01187,-47.2361,353.893,240.286
6.30957,-47.5871,314.103,211.853
7.94328,-47.8295,278.803,187.172
10,-48.2028,246.46,164.264
12.5893,-48.389,217.901,144.701
15.8489,-48.6161,191.816,126.81
19.9526,-48.7546,168.881,111.341
25.1189,-48.8076,148.405,97.7381
31.6228,-48.837,129.903,85.5025
39.8107,-48.5717,113.949,75.3981
50.1187,-48.3404,99.8676,66.3824
63.0957,-47.793,87.5191,58.7963
79.4328,-46.9468,76.6538,52.3298
100,-45.8914,67.3982,46.9106
125.893,-44.4094,59.4308,42.4548
158.489,-42.7734,52.5355,38.5634
199.526,-40.7434,46.6067,35.3111
251.189,-38.2868,41.6413,32.6851
316.228,-35.4182,37.433,30.5058
398.107,-32.2484,34.1609,28.8913
501.187,-29.0055,31.4032,27.4644
630.957,-25.6057,29.3091,26.4306
794.328,-22.4466,27.5886,25.4984
1000,-19.3558,26.4199,24.9266
1258.93,-16.3493,25.3504,24.3253
1584.89,-13.5047,24.7393,24.0553
1995.26,-11.1728,24.2165,23.7575
2511.89,-9.35877,23.8396,23.5223
3162.28,-7.63098,23.6021,23.393
3981.07,-6.43454,23.3698,23.2226
5011.87,-5.50664,23.3577,23.2499
6309.57,-4.01733,23.1888,23.1319
7943.28,-3.26444,23.2928,23.255
10000,-2.18484,22.9375,22.9208
12589.3,-1.97296,23.1363,23.1226
15848.9,-1.79358,23.077,23.0657
19952.6,-1.47111,22.9211,22.9135
25118.9,-0.487197,23.129,23.1282
31622.8,-0.153773,23.0042,23.0041
39810.7,-0.466526,22.8015,22.8008
50118.7,0.00225334,23.0585,23.0585
63095.7,-0.909526,22.7108,22.7079
79432.8,-0.132109,22.7289,22.7288
100000,0.722725,22.6029,22.6011
125893,0.325112,22.8385,22.8381
158489,1.993,23.0359,23.022
199526,0.83249,23.5016,23.4991
251189,0.723689,22.3115,22.3097
316228,1.68316,22.687,22.6772
398107,1.33676,22.7603,22.7541
501187,2.08336,23.1654,23.1501
630957,3.09248,23.1241,23.0904
794328,2.92834,22.8286,22.7988
1000000,4.13402,23.1402,23.08
1.25893e+06,5.59622,22.8108,22.7021
1.58489e+06,7.02491,23.1249,22.9513
1.99526e+06,8.55818,23.2012,22.9429
2.51189e+06,10.9907,23.3983,22.9691
3.16228e+06,13.458,23.6682,23.0183
3.98107e+06,17.3206,24.2398,23.1406
5.01187e+06,20.8183,24.6104,23.0036
6.30957e+06,25.1655,25.8116,23.3617
7.94328e+06,30.4842,27.2408,23.4753
10000000,36.0492,29.8118,24.1032

File: copperTape-PBSx1-100mV.csv
#Digilent WaveForms Impedance Analyzer
#Device Name: Discovery2
#Serial Number: SN:210321B19D0B
#Date Time:
#Digilent WaveForms Impedance Analyzer Trace#Trace: Trace
#Start: 0.1 Hz
#Stop: 1e+07 Hz
#Steps: 81
#Resistor: 100 O
#Average: 1
#ProbeResistance: 1.04e+06 O
#ProbeCapacitance: 4.3e-11 F
#Compensation:none
#Wavegen: Wavegen1
#Amplitude: 0.1 V
#Offset: 0 V
#Amplification: 1 X
#Settle: 0.01 s
#MinPeriods: 16
#Scale: Logarithmic
#Channel: Channel 1
#Range: 5.53139 V
#Offset: -3.93045e-05 V
#Attenuation: 1 X
#Channel: Channel 2
#Range: 5.54075 V
#Offset: 6.34596e-06 V
#Attenuation: 1 X

Frequency (Hz),Trace th (deg),Trace |Z| (Ohm),Trace Rs (Ohm)
0.1,-28.4301,581.495,511.366
0.125893,-29.0703,567.651,496.14
0.158489,-29.1683,550.645,480.819
0.199526,-29.4453,528.227,459.993
0.251189,-29.5967,505.068,439.168
0.316228,-29.9798,481.507,417.082
0.398107,-30.2995,457.18,394.73
0.501187,-30.7867,432.485,371.539
0.630957,-31.2127,407.903,348.859
0.794328,-31.6642,384.249,327.05
1,-32.0707,361.018,305.924
1.25893,-32.5475,338.778,285.571
1.58489,-33.0364,317.045,265.786
1.99526,-33.4379,296.729,247.615
2.51189,-33.8195,276.976,230.111
3.16228,-34.2311,258.103,213.393
3.98107,-34.515,240.084,197.824
5.01187,-34.8647,222.737,182.757
6.30957,-35.2087,206.532,168.748
7.94328,-35.4281,190.814,155.484
10,-35.6986,175.998,142.927
12.5893,-35.8418,162.01,131.331
15.8489,-35.9449,148.579,120.287
19.9526,-35.9867,136.3,110.288
25.1189,-36.0308,124.778,100.908
31.6228,-35.9518,114.183,92.4323
39.8107,-35.8846,104.349,84.5437
50.1187,-35.8085,95.3531,77.3292
63.0957,-35.7572,87.1508,70.7229
79.4328,-35.6287,79.5527,64.6612
100,-35.4665,72.4901,59.0399
125.893,-35.2571,66.0999,53.9753
158.489,-34.9485,60.0981,49.2604
199.526,-34.5642,54.6751,45.0245
251.189,-33.9612,49.7089,41.2294
316.228,-33.1083,45.1498,37.8192
398.107,-32.0628,41.1075,34.8373
501.187,-30.603,37.5233,32.2968
630.957,-28.7734,34.3702,30.1265
794.328,-26.6646,31.6961,28.3252
1000,-24.3368,29.4686,26.85
1258.93,-21.6832,27.6864,25.7273
1584.89,-19.0274,26.2714,24.836
1995.26,-16.3622,25.1879,24.1678
2511.89,-13.9833,24.3269,23.606
3162.28,-11.6732,23.7644,23.2729
3981.07,-9.82981,23.2735,22.9319
5011.87,-7.98464,22.9759,22.7531
6309.57,-6.71879,22.7581,22.6018
7943.28,-5.72038,22.6104,22.4978
10000,-4.4355,22.4616,22.3943
12589.3,-3.90067,22.4077,22.3558
15848.9,-2.76577,22.2742,22.2482
19952.6,-2.22137,22.3981,22.3812
25118.9,-2.1068,22.3448,22.3297
31622.8,-1.70688,22.0858,22.076
39810.7,-1.04151,22.1563,22.1527
50118.7,-0.855096,22.1147,22.1122
63095.7,-0.500439,22.2211,22.2203
79432.8,0.108908,22.0986,22.0986
100000,0.260667,22.3329,22.3327
125893,0.601613,22.0678,22.0666
158489,0.530998,22.2404,22.2395
199526,0.945655,22.0661,22.0631
251189,1.67947,22.3463,22.3367
316228,1.46831,22.3086,22.3013
398107,1.75269,22.2999,22.2895
501187,2.57182,22.1625,22.1402
630957,2.7414,22.4411,22.4154
794328,3.74785,22.3693,22.3214
1000000,4.50644,22.3261,22.257
1.25893e+06,5.79607,22.3467,22.2325
1.58489e+06,7.36727,22.559,22.3727
1.99526e+06,9.00679,22.6422,22.363
2.51189e+06,11.6207,22.9223,22.4525
3.16228e+06,14.2016,23.0501,22.3457
3.98107e+06,17.6577,23.6146,22.502
5.01187e+06,21.7616,24.3419,22.6072
6.30957e+06,25.9933,25.3564,22.7915
7.94328e+06,31.7938,26.6947,22.6891
10000000,37.873,28.9997,22.8916